File: unsorted data/Group 23b/steel tensile.dat
Code:	WP 300.20
Tensile test

G.U.N.T. Gerätebau GmbH
Hanskampring 15 -17,
22885 Barsbüttel
Germany, Tel ++4940 / 67 08 54 -0
Date: 03.03.2023	Time: 12:58:46

Name:	steel
User Comment:

Data Start
s Distance	F Force	EPS Elongation	SIGMA Stress
mm	KN	%	N/mm^2
1.0755	0.1255	Inf	Inf	0.0000	0.0000	0.0000
1.0862	0.2263	Inf	Inf	0.0000	0.0000	0.0000
1.0923	0.5973	Inf	Inf	0.0000	0.0000	0.0000
1.1152	0.9506	Inf	Inf	0.0000	0.0000	0.0000
1.1396	1.3099	Inf	Inf	0.0000	0.0000	0.0000
1.1518	1.5561	Inf	Inf	0.0000	0.0000	0.0000
1.1633	1.7858	Inf	Inf	0.0000	0.0000	0.0000
1.1633	2.3272	Inf	Inf	0.0000	0.0000	0.0000
1.1641	2.0286	Inf	Inf	0.0000	0.0000	0.0000
1.1671	1.9285	Inf	Inf	0.0000	0.0000	0.0000
1.1702	2.1286	Inf	Inf	0.0000	0.0000	0.0000
1.1717	2.2287	Inf	Inf	0.0000	0.0000	0.0000
1.1717	2.4265	Inf	Inf	0.0000	0.0000	0.0000
1.1778	2.5284	Inf	Inf	0.0000	0.0000	0.0000
1.1816	2.6281	Inf	Inf	0.0000	0.0000	0.0000
1.1923	2.9301	Inf	Inf	0.0000	0.0000	0.0000
1.1992	3.1710	Inf	Inf	0.0000	0.0000	0.0000
1.2030	3.4670	Inf	Inf	0.0000	0.0000	0.0000
1.2182	3.7769	Inf	Inf	0.0000	0.0000	0.0000
1.2305	4.1932	Inf	Inf	0.0000	0.0000	0.0000
1.2419	4.7140	Inf	Inf	0.0000	0.0000	0.0000
1.2465	4.8181	Inf	Inf	0.0000	0.0000	0.0000
1.2473	4.9174	Inf	Inf	0.0000	0.0000	0.0000
1.2518	5.1498	Inf	Inf	0.0000	0.0000	0.0000
1.2556	5.7020	Inf	Inf	0.0000	0.0000	0.0000
1.2640	6.0689	Inf	Inf	0.0000	0.0000	0.0000
1.2694	6.1644	Inf	Inf	0.0000	0.0000	0.0000
1.2747	6.5556	Inf	Inf	0.0000	0.0000	0.0000
1.2885	7.1727	Inf	Inf	0.0000	0.0000	0.0000
1.3037	7.6894	Inf	Inf	0.0000	0.0000	0.0000
1.3076	7.8288	Inf	Inf	0.0000	0.0000	0.0000
1.3137	8.0836	Inf	Inf	0.0000	0.0000	0.0000
1.3182	8.2784	Inf	Inf	0.0000	0.0000	0.0000
1.3266	8.5062	Inf	Inf	0.0000	0.0000	0.0000
1.3358	8.9293	Inf	Inf	0.0000	0.0000	0.0000
1.3427	9.4669	Inf	Inf	0.0000	0.0000	0.0000
1.4007	8.6306	Inf	Inf	0.0000	0.0000	0.0000
1.5014	8.6692	Inf	Inf	0.0000	0.0000	0.0000
1.5747	8.5673	Inf	Inf	0.0000	0.0000	0.0000
1.5999	8.4204	Inf	Inf	0.0000	0.0000	0.0000
1.6518	8.1877	Inf	Inf	0.0000	0.0000	0.0000
1.6793	8.2822	Inf	Inf	0.0000	0.0000	0.0000
1.6892	8.4328	Inf	Inf	0.0000	0.0000	0.0000
1.7671	8.3219	Inf	Inf	0.0000	0.0000	0.0000
1.8671	8.3519	Inf	Inf	0.0000	0.0000	0.0000
1.9182	8.2496	Inf	Inf	0.0000	0.0000	0.0000
1.9243	8.1473	Inf	Inf	0.0000	0.0000	0.0000
1.9419	8.2473	Inf	Inf	0.0000	0.0000	0.0000
1.9861	8.4838	Inf	Inf	0.0000	0.0000	0.0000
2.0625	8.3770	Inf	Inf	0.0000	0.0000	0.0000
2.1144	8.2676	Inf	Inf	0.0000	0.0000	0.0000
2.1785	8.3657	Inf	Inf	0.0000	0.0000	0.0000
2.1922	8.4740	Inf	Inf	0.0000	0.0000	0.0000
2.2861	8.3702	Inf	Inf	0.0000	0.0000	0.0000
2.2869	8.2672	Inf	Inf	0.0000	0.0000	0.0000
2.2945	8.1653	Inf	Inf	0.0000	0.0000	0.0000
2.3052	8.2619	Inf	Inf	0.0000	0.0000	0.0000
2.3228	8.3571	Inf	Inf	0.0000	0.0000	0.0000
2.3479	8.4590	Inf	Inf	0.0000	0.0000	0.0000
2.3838	8.5621	Inf	Inf	0.0000	0.0000	0.0000
2.4136	8.6599	Inf	Inf	0.0000	0.0000	0.0000
2.4266	8.5587	Inf	Inf	0.0000	0.0000	0.0000
2.4281	8.6606	Inf	Inf	0.0000	0.0000	0.0000
2.4495	8.7610	Inf	Inf	0.0000	0.0000	0.0000
2.4647	8.8914	Inf	Inf	0.0000	0.0000	0.0000
2.5082	8.9926	Inf	Inf	0.0000	0.0000	0.0000
2.5403	9.0952	Inf	Inf	0.0000	0.0000	0.0000
2.5708	8.9933	Inf	Inf	0.0000	0.0000	0.0000
2.5846	9.0911	Inf	Inf	0.0000	0.0000	0.0000
2.6151	9.1919	Inf	Inf	0.0000	0.0000	0.0000
2.6510	9.2923	Inf	Inf	0.0000	0.0000	0.0000
2.7006	9.3913	Inf	Inf	0.0000	0.0000	0.0000
2.7785	9.4920	Inf	Inf	0.0000	0.0000	0.0000
2.8136	9.5936	Inf	Inf	0.0000	0.0000	0.0000
2.8494	9.4669	Inf	Inf	0.0000	0.0000	0.0000
2.8655	9.5621	Inf	Inf	0.0000	0.0000	0.0000
2.8876	9.6775	Inf	Inf	0.0000	0.0000	0.0000
2.9471	9.7768	Inf	Inf	0.0000	0.0000	0.0000
3.0105	9.8772	Inf	Inf	0.0000	0.0000	0.0000
3.0884	9.9765	Inf	Inf	0.0000	0.0000	0.0000
3.1884	9.9915	Inf	Inf	0.0000	0.0000	0.0000
3.1960	10.0882	Inf	Inf	0.0000	0.0000	0.0000
3.2197	9.9833	Inf	Inf	0.0000	0.0000	0.0000
3.2227	9.8798	Inf	Inf	0.0000	0.0000	0.0000
3.2403	9.9769	Inf	Inf	0.0000	0.0000	0.0000
3.2479	10.1080	Inf	Inf	0.0000	0.0000	0.0000
3.2784	10.2058	Inf	Inf	0.0000	0.0000	0.0000
3.3112	10.1039	Inf	Inf	0.0000	0.0000	0.0000
3.3158	10.2047	Inf	Inf	0.0000	0.0000	0.0000
3.3769	10.3059	Inf	Inf	0.0000	0.0000	0.0000
3.4242	10.4067	Inf	Inf	0.0000	0.0000	0.0000
3.5005	10.3047	Inf	Inf	0.0000	0.0000	0.0000
3.5219	10.4097	Inf	Inf	0.0000	0.0000	0.0000
3.5494	10.5105	Inf	Inf	0.0000	0.0000	0.0000
3.6120	10.4078	Inf	Inf	0.0000	0.0000	0.0000
3.6158	10.5067	Inf	Inf	0.0000	0.0000	0.0000
3.6540	10.6086	Inf	Inf	0.0000	0.0000	0.0000
3.7051	10.5048	Inf	Inf	0.0000	0.0000	0.0000
3.7158	10.6094	Inf	Inf	0.0000	0.0000	0.0000
3.7471	10.7087	Inf	Inf	0.0000	0.0000	0.0000
3.8471	10.7488	Inf	Inf	0.0000	0.0000	0.0000
3.8639	10.8458	Inf	Inf	0.0000	0.0000	0.0000
3.8952	10.7439	Inf	Inf	0.0000	0.0000	0.0000
3.9082	10.6412	Inf	Inf	0.0000	0.0000	0.0000
3.9188	10.7356	Inf	Inf	0.0000	0.0000	0.0000
3.9250	10.8458	Inf	Inf	0.0000	0.0000	0.0000
4.0249	10.9061	Inf	Inf	0.0000	0.0000	0.0000
4.1249	10.9931	Inf	Inf	0.0000	0.0000	0.0000
4.2249	11.0897	Inf	Inf	0.0000	0.0000	0.0000
4.2608	10.9837	Inf	Inf	0.0000	0.0000	0.0000
4.2761	11.0867	Inf	Inf	0.0000	0.0000	0.0000
4.3585	11.1894	Inf	Inf	0.0000	0.0000	0.0000
4.4585	11.2385	Inf	Inf	0.0000	0.0000	0.0000
4.5463	11.3400	Inf	Inf	0.0000	0.0000	0.0000
4.5677	11.2374	Inf	Inf	0.0000	0.0000	0.0000
4.5883	11.3389	Inf	Inf	0.0000	0.0000	0.0000
4.6234	11.2314	Inf	Inf	0.0000	0.0000	0.0000
4.6241	11.1291	Inf	Inf	0.0000	0.0000	0.0000
4.6386	11.2265	Inf	Inf	0.0000	0.0000	0.0000
4.6524	11.3273	Inf	Inf	0.0000	0.0000	0.0000
4.7157	11.4258	Inf	Inf	0.0000	0.0000	0.0000
4.8157	11.3157	Inf	Inf	0.0000	0.0000	0.0000
4.8272	11.4176	Inf	Inf	0.0000	0.0000	0.0000
4.9257	11.5161	Inf	Inf	0.0000	0.0000	0.0000
4.9852	11.4146	Inf	Inf	0.0000	0.0000	0.0000
5.0111	11.5124	Inf	Inf	0.0000	0.0000	0.0000
5.0394	11.6154	Inf	Inf	0.0000	0.0000	0.0000
5.0867	11.5120	Inf	Inf	0.0000	0.0000	0.0000
5.1379	11.6098	Inf	Inf	0.0000	0.0000	0.0000
5.2378	11.6529	Inf	Inf	0.0000	0.0000	0.0000
5.3371	11.7488	Inf	Inf	0.0000	0.0000	0.0000
5.4371	11.7488	Inf	Inf	0.0000	0.0000	0.0000
5.5142	11.6454	Inf	Inf	0.0000	0.0000	0.0000
5.5187	11.5431	Inf	Inf	0.0000	0.0000	0.0000
5.5355	11.6413	Inf	Inf	0.0000	0.0000	0.0000
5.5638	11.8080	Inf	Inf	0.0000	0.0000	0.0000
5.6638	11.8571	Inf	Inf	0.0000	0.0000	0.0000
5.6768	11.7492	Inf	Inf	0.0000	0.0000	0.0000
5.6859	11.6461	Inf	Inf	0.0000	0.0000	0.0000
5.7004	11.7526	Inf	Inf	0.0000	0.0000	0.0000
5.7126	11.8732	Inf	Inf	0.0000	0.0000	0.0000
5.8126	11.9024	Inf	Inf	0.0000	0.0000	0.0000
5.8363	11.7971	Inf	Inf	0.0000	0.0000	0.0000
5.8569	11.9006	Inf	Inf	0.0000	0.0000	0.0000
5.9569	11.7945	Inf	Inf	0.0000	0.0000	0.0000
5.9691	11.8946	Inf	Inf	0.0000	0.0000	0.0000
6.0355	11.9942	Inf	Inf	0.0000	0.0000	0.0000
6.0500	11.8841	Inf	Inf	0.0000	0.0000	0.0000
6.0561	11.7222	Inf	Inf	0.0000	0.0000	0.0000
6.0721	11.8279	Inf	Inf	0.0000	0.0000	0.0000
6.0981	11.9275	Inf	Inf	0.0000	0.0000	0.0000
6.1126	11.8215	Inf	Inf	0.0000	0.0000	0.0000
6.1302	11.9182	Inf	Inf	0.0000	0.0000	0.0000
6.1683	12.0265	Inf	Inf	0.0000	0.0000	0.0000
6.2393	11.9219	Inf	Inf	0.0000	0.0000	0.0000
6.2889	12.0238	Inf	Inf	0.0000	0.0000	0.0000
6.3843	11.9144	Inf	Inf	0.0000	0.0000	0.0000
6.3920	11.8133	Inf	Inf	0.0000	0.0000	0.0000
6.4050	11.9137	Inf	Inf	0.0000	0.0000	0.0000
6.4546	12.0141	Inf	Inf	0.0000	0.0000	0.0000
6.4645	11.9107	Inf	Inf	0.0000	0.0000	0.0000
6.4904	12.0118	Inf	Inf	0.0000	0.0000	0.0000
6.5630	12.1123	Inf	Inf	0.0000	0.0000	0.0000
6.6630	12.0988	Inf	Inf	0.0000	0.0000	0.0000
6.7629	12.1332	Inf	Inf	0.0000	0.0000	0.0000
6.7805	12.0238	Inf	Inf	0.0000	0.0000	0.0000
6.7965	12.1212	Inf	Inf	0.0000	0.0000	0.0000
6.8286	11.9673	Inf	Inf	0.0000	0.0000	0.0000
6.8461	12.0654	Inf	Inf	0.0000	0.0000	0.0000
6.9171	12.1655	Inf	Inf	0.0000	0.0000	0.0000
6.9828	12.0617	Inf	Inf	0.0000	0.0000	0.0000
7.0057	12.1617	Inf	Inf	0.0000	0.0000	0.0000
7.0286	12.0598	Inf	Inf	0.0000	0.0000	0.0000
7.0538	12.1591	Inf	Inf	0.0000	0.0000	0.0000
7.1270	12.0546	Inf	Inf	0.0000	0.0000	0.0000
7.1469	12.1587	Inf	Inf	0.0000	0.0000	0.0000
7.2469	12.0609	Inf	Inf	0.0000	0.0000	0.0000
7.2507	11.8552	Inf	Inf	0.0000	0.0000	0.0000
7.2515	11.9583	Inf	Inf	0.0000	0.0000	0.0000
7.2553	11.9571	Inf	Inf	0.0000	0.0000	0.0000
7.2805	12.1227	Inf	Inf	0.0000	0.0000	0.0000
7.3247	12.0197	Inf	Inf	0.0000	0.0000	0.0000
7.3423	12.1205	Inf	Inf	0.0000	0.0000	0.0000
7.3606	12.2486	Inf	Inf	0.0000	0.0000	0.0000
7.4461	12.1437	Inf	Inf	0.0000	0.0000	0.0000
7.4835	12.0407	Inf	Inf	0.0000	0.0000	0.0000
7.4934	11.9369	Inf	Inf	0.0000	0.0000	0.0000
7.4988	12.0347	Inf	Inf	0.0000	0.0000	0.0000
7.5194	12.1340	Inf	Inf	0.0000	0.0000	0.0000
7.5629	12.2370	Inf	Inf	0.0000	0.0000	0.0000
7.5980	12.1347	Inf	Inf	0.0000	0.0000	0.0000
7.6453	12.0298	Inf	Inf	0.0000	0.0000	0.0000
7.6507	11.9275	Inf	Inf	0.0000	0.0000	0.0000
7.6583	12.0287	Inf	Inf	0.0000	0.0000	0.0000
7.6690	12.1715	Inf	Inf	0.0000	0.0000	0.0000
7.7690	12.2434	Inf	Inf	0.0000	0.0000	0.0000
7.8110	12.1377	Inf	Inf	0.0000	0.0000	0.0000
7.8178	12.0343	Inf	Inf	0.0000	0.0000	0.0000
7.8224	12.1359	Inf	Inf	0.0000	0.0000	0.0000
7.8575	12.2374	Inf	Inf	0.0000	0.0000	0.0000
7.9575	12.2232	Inf	Inf	0.0000	0.0000	0.0000
7.9606	12.1168	Inf	Inf	0.0000	0.0000	0.0000
7.9713	12.2183	Inf	Inf	0.0000	0.0000	0.0000
8.0545	12.1149	Inf	Inf	0.0000	0.0000	0.0000
8.0819	12.2160	Inf	Inf	0.0000	0.0000	0.0000
8.1606	12.3172	Inf	Inf	0.0000	0.0000	0.0000
8.2247	12.2044	Inf	Inf	0.0000	0.0000	0.0000
8.2606	12.3026	Inf	Inf	0.0000	0.0000	0.0000
8.3392	12.1981	Inf	Inf	0.0000	0.0000	0.0000
8.3606	12.2985	Inf	Inf	0.0000	0.0000	0.0000
8.4216	12.1898	Inf	Inf	0.0000	0.0000	0.0000
8.4346	12.0519	Inf	Inf	0.0000	0.0000	0.0000
8.4544	12.1546	Inf	Inf	0.0000	0.0000	0.0000
8.4682	12.3000	Inf	Inf	0.0000	0.0000	0.0000
8.5682	12.1670	Inf	Inf	0.0000	0.0000	0.0000
8.5918	12.2655	Inf	Inf	0.0000	0.0000	0.0000
8.6216	12.1647	Inf	Inf	0.0000	0.0000	0.0000
8.6483	12.2648	Inf	Inf	0.0000	0.0000	0.0000
8.7483	12.2404	Inf	Inf	0.0000	0.0000	0.0000
8.8254	12.0384	Inf	Inf	0.0000	0.0000	0.0000
8.8262	12.1392	Inf	Inf	0.0000	0.0000	0.0000
8.8277	12.1329	Inf	Inf	0.0000	0.0000	0.0000
8.8689	12.2670	Inf	Inf	0.0000	0.0000	0.0000
8.9224	12.1621	Inf	Inf	0.0000	0.0000	0.0000
8.9231	12.0591	Inf	Inf	0.0000	0.0000	0.0000
8.9338	12.1636	Inf	Inf	0.0000	0.0000	0.0000
8.9949	12.2606	Inf	Inf	0.0000	0.0000	0.0000
9.0872	12.3592	Inf	Inf	0.0000	0.0000	0.0000
9.1613	12.2554	Inf	Inf	0.0000	0.0000	0.0000
9.2231	12.1501	Inf	Inf	0.0000	0.0000	0.0000
9.2361	12.2524	Inf	Inf	0.0000	0.0000	0.0000
9.3315	12.3509	Inf	Inf	0.0000	0.0000	0.0000
9.4315	12.2857	Inf	Inf	0.0000	0.0000	0.0000
9.5269	12.1123	Inf	Inf	0.0000	0.0000	0.0000
9.5284	12.0096	Inf	Inf	0.0000	0.0000	0.0000
9.5315	12.2145	Inf	Inf	0.0000	0.0000	0.0000
9.5445	12.1145	Inf	Inf	0.0000	0.0000	0.0000
9.5681	12.2393	Inf	Inf	0.0000	0.0000	0.0000
9.6574	12.3382	Inf	Inf	0.0000	0.0000	0.0000
9.7391	12.2344	Inf	Inf	0.0000	0.0000	0.0000
9.8192	12.3374	Inf	Inf	0.0000	0.0000	0.0000
9.8536	12.2307	Inf	Inf	0.0000	0.0000	0.0000
9.8750	12.3329	Inf	Inf	0.0000	0.0000	0.0000
9.9750	12.3281	Inf	Inf	0.0000	0.0000	0.0000
10.0704	12.2217	Inf	Inf	0.0000	0.0000	0.0000
10.0734	12.1018	Inf	Inf	0.0000	0.0000	0.0000
10.0788	11.9998	Inf	Inf	0.0000	0.0000	0.0000
10.0872	12.1033	Inf	Inf	0.0000	0.0000	0.0000
10.0887	12.1996	Inf	Inf	0.0000	0.0000	0.0000
10.1124	12.3086	Inf	Inf	0.0000	0.0000	0.0000
10.2124	12.2209	Inf	Inf	0.0000	0.0000	0.0000
10.2543	12.3202	Inf	Inf	0.0000	0.0000	0.0000
10.2788	12.1546	Inf	Inf	0.0000	0.0000	0.0000
10.2986	12.2501	Inf	Inf	0.0000	0.0000	0.0000
10.3597	12.1460	Inf	Inf	0.0000	0.0000	0.0000
10.3604	12.0429	Inf	Inf	0.0000	0.0000	0.0000
10.3665	12.1482	Inf	Inf	0.0000	0.0000	0.0000
10.3910	12.3191	Inf	Inf	0.0000	0.0000	0.0000
10.4284	12.2138	Inf	Inf	0.0000	0.0000	0.0000
10.5291	12.3093	Inf	Inf	0.0000	0.0000	0.0000
10.6291	12.2775	Inf	Inf	0.0000	0.0000	0.0000
10.7291	12.2183	Inf	Inf	0.0000	0.0000	0.0000
10.8283	12.1760	Inf	Inf	0.0000	0.0000	0.0000
10.8367	12.2726	Inf	Inf	0.0000	0.0000	0.0000
10.8589	12.1640	Inf	Inf	0.0000	0.0000	0.0000
10.8703	12.0208	Inf	Inf	0.0000	0.0000	0.0000
10.8879	12.1198	Inf	Inf	0.0000	0.0000	0.0000
10.9199	12.3296	Inf	Inf	0.0000	0.0000	0.0000
11.0192	12.3356	Inf	Inf	0.0000	0.0000	0.0000
11.0367	12.2205	Inf	Inf	0.0000	0.0000	0.0000
11.1001	12.1130	Inf	Inf	0.0000	0.0000	0.0000
11.1176	12.2134	Inf	Inf	0.0000	0.0000	0.0000
11.2069	12.1074	Inf	Inf	0.0000	0.0000	0.0000
11.2153	12.0040	Inf	Inf	0.0000	0.0000	0.0000
11.2207	12.1063	Inf	Inf	0.0000	0.0000	0.0000
11.2902	12.2052	Inf	Inf	0.0000	0.0000	0.0000
11.2955	12.0740	Inf	Inf	0.0000	0.0000	0.0000
11.3115	12.1745	Inf	Inf	0.0000	0.0000	0.0000
11.4123	12.2269	Inf	Inf	0.0000	0.0000	0.0000
11.5130	12.2130	Inf	Inf	0.0000	0.0000	0.0000
11.5275	12.1074	Inf	Inf	0.0000	0.0000	0.0000
11.6275	12.1048	Inf	Inf	0.0000	0.0000	0.0000
11.6314	11.9980	Inf	Inf	0.0000	0.0000	0.0000
11.6336	11.8964	Inf	Inf	0.0000	0.0000	0.0000
11.6512	12.0017	Inf	Inf	0.0000	0.0000	0.0000
11.7275	12.1040	Inf	Inf	0.0000	0.0000	0.0000
11.7894	11.9987	Inf	Inf	0.0000	0.0000	0.0000
11.8886	12.0635	Inf	Inf	0.0000	0.0000	0.0000
11.9886	12.0298	Inf	Inf	0.0000	0.0000	0.0000
12.0893	12.0268	Inf	Inf	0.0000	0.0000	0.0000
12.1886	11.8859	Inf	Inf	0.0000	0.0000	0.0000
12.2886	11.8174	Inf	Inf	0.0000	0.0000	0.0000
12.3557	11.7140	Inf	Inf	0.0000	0.0000	0.0000
12.3679	11.6124	Inf	Inf	0.0000	0.0000	0.0000
12.3847	11.7196	Inf	Inf	0.0000	0.0000	0.0000
12.4840	11.6821	Inf	Inf	0.0000	0.0000	0.0000
12.5168	11.7822	Inf	Inf	0.0000	0.0000	0.0000
12.5779	11.6709	Inf	Inf	0.0000	0.0000	0.0000
12.6779	11.6244	Inf	Inf	0.0000	0.0000	0.0000
12.7130	11.5202	Inf	Inf	0.0000	0.0000	0.0000
12.7221	11.4067	Inf	Inf	0.0000	0.0000	0.0000
12.7343	11.2932	Inf	Inf	0.0000	0.0000	0.0000
12.7473	11.3932	Inf	Inf	0.0000	0.0000	0.0000
12.7786	11.4936	Inf	Inf	0.0000	0.0000	0.0000
12.8534	11.3899	Inf	Inf	0.0000	0.0000	0.0000
12.9542	11.2936	Inf	Inf	0.0000	0.0000	0.0000
13.0145	11.1894	Inf	Inf	0.0000	0.0000	0.0000
13.0603	11.0852	Inf	Inf	0.0000	0.0000	0.0000
13.1351	10.9773	Inf	Inf	0.0000	0.0000	0.0000
13.1442	10.8184	Inf	Inf	0.0000	0.0000	0.0000
13.1496	10.9177	Inf	Inf	0.0000	0.0000	0.0000
13.2496	10.8323	Inf	Inf	0.0000	0.0000	0.0000
13.2503	10.7308	Inf	Inf	0.0000	0.0000	0.0000
13.2748	10.8308	Inf	Inf	0.0000	0.0000	0.0000
13.3755	10.7634	Inf	Inf	0.0000	0.0000	0.0000
13.4038	10.6585	Inf	Inf	0.0000	0.0000	0.0000
13.4679	10.5535	Inf	Inf	0.0000	0.0000	0.0000
13.5473	10.4498	Inf	Inf	0.0000	0.0000	0.0000
13.5747	10.3422	Inf	Inf	0.0000	0.0000	0.0000
13.5877	10.1785	Inf	Inf	0.0000	0.0000	0.0000
13.6083	10.2796	Inf	Inf	0.0000	0.0000	0.0000
13.6732	10.0087	Inf	Inf	0.0000	0.0000	0.0000
13.7618	9.9027	Inf	Inf	0.0000	0.0000	0.0000
13.8305	9.8008	Inf	Inf	0.0000	0.0000	0.0000
13.8686	9.6985	Inf	Inf	0.0000	0.0000	0.0000
13.9121	9.5970	Inf	Inf	0.0000	0.0000	0.0000
13.9572	9.4939	Inf	Inf	0.0000	0.0000	0.0000
14.0098	9.3890	Inf	Inf	0.0000	0.0000	0.0000
14.0610	9.2545	Inf	Inf	0.0000	0.0000	0.0000
14.0946	9.1522	Inf	Inf	0.0000	0.0000	0.0000
14.1312	9.0469	Inf	Inf	0.0000	0.0000	0.0000
14.2258	8.5002	Inf	Inf	0.0000	0.0000	0.0000
14.3258	8.2245	Inf	Inf	0.0000	0.0000	0.0000
14.5052	7.9491	Inf	Inf	0.0000	0.0000	0.0000
14.7205	7.6748	Inf	Inf	0.0000	0.0000	0.0000
14.9525	7.3986	Inf	Inf	0.0000	0.0000	0.0000
15.2349	7.1188	Inf	Inf	0.0000	0.0000	0.0000
Data End